IESNA:LM-63-2002
[TEST] Viso  - serial: n/a sensor serial: n/a
[TESTLAB] Viso  - serial: n/a sensor serial: n/a - Test lab
[MANUFAC] N/A
[ISSUEDATE] 3/10/2025
[LUMINAIRE] Gizmo 3000K 95 CRI 3V 700mA (Lens E)
[LUMCAT] N/A
TILT=NONE
1 253 1 37 5 1 2 -0.02 -0.02 0
1.0 1.0 2.10
0 2.5 5 7.5 10 12.5 15 17.5 20 22.5 25 27.5 30 32.5 35 37.5 40 42.5 45 47.5 50 52.5 55 57.5 60 62.5 65 67.5 70 72.5 75 77.5 80 82.5 85 87.5 90
0 90 180 270 360 
938.774536 799.398193 506.690491 275.335052 137.251343 59.824493 26.945993 16.440573 12.518126 8.347858 5.739065 4.603974 3.943494 3.074071 2.604791 2.213671 1.768108 1.451288 1.282986 1.199563 1.145102 0.930218 0.607122 0.472897 0.397191
 0.31961 0.252508 0.228529 0.197357 0.173973 0.166925 0.179657 0.18066 0.194389 0.186711 0.17531 0
938.774536 954.815857 946.720825 923.880188 890.131104 841.151001 768.886841 667.253113 538.784546 400.527527 272.038788 169.329803 98.228989 54.242149 30.4557 17.605284 10.58939 6.788437 4.622261 3.079665 1.878734 1.14183 0.795728
 0.621402 0.463791 0.359603 0.305256 0.228165 0.173396 0.179643 0.165057 0.174588 0.145253 0.152536 0.152836 0.139558 0.163671
938.774536 798.565491 508.885437 271.725311 126.895645 51.837875 25.039856 17.836351 14.087556 9.395265 6.46416 4.657636 3.838861 3.170698 2.458761 2.027191 1.658906 1.368334 1.124008 1.019712 0.946868 0.862391 0.661861 0.513338 0.416279
 0.331169 0.28439 0.269987 0.223265 0.187203 0.188312 0.188429 0.169585 0.180359 0.185579 0.179252 0.201823
938.774536 942.101013 921.665894 892.564209 851.795532 799.86908 735.386169 647.783203 532.523132 405.038605 284.634308 184.71904 113.301308 68.161713 41.602005 25.530289 16.035734 10.336804 6.927505 4.189861 2.316885 1.251368 0.796538
 0.554071 0.437399 0.382904 0.305493 0.214373 0.182073 0.153819 0.162771 0.121774 0.14795 0.122244 0.126725 0.109273 0
938.774536 799.398193 506.690491 275.335052 137.251343 59.824493 26.945993 16.440573 12.518126 8.347858 5.739065 4.603974 3.943494 3.074071 2.604791 2.213671 1.768108 1.451288 1.282986 1.199563 1.145102 0.930218 0.607122 0.472897 0.397191
 0.31961 0.252508 0.228529 0.197357 0.173973 0.166925 0.179657 0.18066 0.194389 0.186711 0.17531 0
